{
    "resourceType": "Bundle",
    "id": "mvp-visit-bundle",
    "type": "document",
    "timestamp": "2024-07-30T10:30:00Z",
    "entry": [
      {
        "resource": {
          "resourceType": "Patient",
          "id": "patient-123",
          "identifier": [
            {
              "system": "urn:oid:1.2.36.146.595.217.0.1",
              "value": "MRN-0012345"
            }
          ],
          "name": [
            {
              "family": "Doe",
              "given": ["John", "Michael"]
            }
          ],
          "gender": "male",
          "birthDate": "1980-01-15"
        }
      },
      {
        "resource": {
          "resourceType": "Practitioner",
          "id": "dr-smith",
          "identifier": [
            {
              "system": "http://hl7.org/fhir/sid/us-npi",
              "value": "1234567890"
            }
          ],
          "name": [
            {
              "family": "Smith",
              "given": ["Alice", "Marie"],
              "prefix": ["Dr."]
            }
          ]
        }
      },
      {
        "resource": {
          "resourceType": "Encounter",
          "id": "encounter-456",
          "status": "finished",
          "class": {
            "system": "http://terminology.hl7.org/CodeSystem/v3-ActCode",
            "code": "AMB",
            "display": "Ambulatory"
          },
          "type": [
            {
              "coding": [
                {
                  "system": "http://snomed.info/sct",
                  "code": "185349003",
                  "display": "Outpatient clinic procedure"
                }
              ]
            }
          ],
          "subject": {
            "reference": "Patient/patient-123"
          },
          "participant": [
            {
              "individual": {
                "reference": "Practitioner/dr-smith"
              }
            }
          ],
          "period": {
            "start": "2024-07-30T09:00:00Z",
            "end": "2024-07-30T10:00:00Z"
          },
          "reasonCode": [
            {
              "text": "Annual Physical Exam"
            }
          ]
        }
      },
      {
        "resource": {
          "resourceType": "Observation",
          "id": "observation-bp",
          "status": "final",
          "category": [
            {
              "coding": [
                {
                  "system": "http://terminology.hl7.org/CodeSystem/observation-category",
                  "code": "vital-signs",
                  "display": "Vital Signs"
                }
              ]
            }
          ],
          "code": {
            "text": "Blood Pressure"
          },
          "subject": {
            "reference": "Patient/patient-123"
          },
          "encounter": {
            "reference": "Encounter/encounter-456"
          },
          "effectiveDateTime": "2024-07-30T09:15:00Z",
          "valueQuantity": {
            "value": 120,
            "unit": "mmHg"
          },
          "component": [
            {
              "code": { "text": "Systolic" },
              "valueQuantity": { "value": 120, "unit": "mmHg" }
            },
            {
              "code": { "text": "Diastolic" },
              "valueQuantity": { "value": 80, "unit": "mmHg" }
            }
          ]
        }
      },
      {
        "resource": {
          "resourceType": "Condition",
          "id": "condition-hypertension",
          "clinicalStatus": {
            "coding": [
              {
                "system": "http://terminology.hl7.org/CodeSystem/condition-clinical",
                "code": "active"
              }
            ]
          },
          "code": {
            "text": "Hypertension"
          },
          "subject": {
            "reference": "Patient/patient-123"
          },
          "encounter": {
            "reference": "Encounter/encounter-456"
          },
          "recordedDate": "2024-07-30"
        }
      },
      {
        "resource": {
          "resourceType": "MedicationRequest",
          "id": "prescription-789",
          "status": "active",
          "intent": "order",
          "medicationCodeableConcept": {
            "text": "Amoxicillin 250 mg capsule"
          },
          "subject": {
            "reference": "Patient/patient-123"
          },
          "encounter": {
            "reference": "Encounter/encounter-456"
          },
          "authoredOn": "2024-07-30T10:45:00Z",
          "requester": {
            "reference": "Practitioner/dr-smith"
          },
          "dosageInstruction": [
            {
              "text": "Take 1 capsule by mouth three times a day for 10 days with food"
            }
          ]
        }
      }
    ],
    "signature": {
      "type": [
        {
          "system": "http://hl7.org/fhir/ValueSet/signature-type",
          "code": "1.2.840.10065.1.12.1.1",
          "display": "Author's Signature"
        }
      ],
      "when": "2024-07-30T10:30:00Z",
      "who": {
        "reference": "Practitioner/dr-smith"
      },
      "data": "base64-encoded-signature-data",
      "sigFormat": "application/pkcs7-mime"
    }
  }
  